<?xml version="1.0" encoding="UTF-8"?>

<Bundle xmlns="http://hl7.org/fhir">
  <id value="cds-bundle-transaction-creation-example"/>
  <meta>
    <profile value="http://interop.esante.gouv.fr/ig/fhir/cds/StructureDefinition/cds-bundle-transaction-creation"/>
  </meta>
  <type value="transaction"/>
  <entry>
    <fullUrl value="urn:uuid:61ebe359-bfdc-4613-8bf2-c5e300945f0a"/>
    <resource>
      <CareTeam>
        <id value="cds-careteam-example"/>
        <meta>
          <lastUpdated value="2023-09-27T13:48:19.342+01:00"/>
          <profile value="http://interop.esante.gouv.fr/ig/fhir/cds/StructureDefinition/cds-ihe-careteam"/>
        </meta>
        <text>
          <status value="generated"/><div xmlns="http://www.w3.org/1999/xhtml"><a name="CareTeam_cds-careteam-example"> </a><p><b>Generated Narrative: CareTeam </b><a name="cds-careteam-example"> </a><a name="hccds-careteam-example"> </a></p><div style="display: inline-block; background-color: #d9e0e7; padding: 6px; margin: 4px; border: 1px solid #8da1b4; border-radius: 5px; line-height: 60%"><p style="margin-bottom: 0px">ResourceCareTeam &quot;cds-careteam-example&quot; Updated&quot;2023-09-27 13:48:19+0100&quot; </p><p style="margin-bottom: 0px">Profile: <a href="StructureDefinition-cds-ihe-careteam.html">CDS CareTeam Profile</a></p></div><p><b>identifier</b>: <code>http://fake-identifier.fr</code>/1</p><p><b>status</b>: active</p><p><b>name</b>: Cercle de soins de Mr Jacques Thobois</p><p><b>subject</b>: See on this page: Patient/cds-patient-example</p><p><b>period</b>: 2013-01-12 --&gt; (ongoing)</p><blockquote><p><b>participant</b></p><p><b>member</b>: See on this page: RelatedPerson/cds-relatedperson-example</p><p><b>period</b>: 2013-01-12 --&gt; (ongoing)</p></blockquote><blockquote><p><b>participant</b></p><p><b>member</b>: See on this page: Organization/cds-organization-example</p><p><b>period</b>: 2013-01-12 --&gt; 2032-12-18 13:48:19+0100</p></blockquote><p><b>managingOrganization</b>: See on this page: Organization/cds-organization-example</p></div>
        </text>
        <identifier>
          <system value="http://fake-identifier.fr"/>
          <value value="1"/>
        </identifier>
        <status value="active"/>
        <name value="Cercle de soins de Mr Jacques Thobois"/>
        <subject>
          <reference value="Patient/cds-patient-example"/>
        </subject>
        <period>
          <start value="2013-01-12"/>
        </period>
        <participant>
          <member>
            <reference value="RelatedPerson/cds-relatedperson-example"/>
          </member>
          <period>
            <start value="2013-01-12"/>
          </period>
        </participant>
        <participant>
          <member>
            <reference value="Organization/cds-organization-example"/>
          </member>
          <period>
            <start value="2013-01-12"/>
            <end value="2032-12-18T13:48:19.342+01:00"/>
          </period>
        </participant>
        <managingOrganization>
          <reference value="Organization/cds-organization-example"/>
        </managingOrganization>
      </CareTeam>
    </resource>
    <request>
      <method value="POST"/>
      <url value="CareTeam"/>
    </request>
  </entry>
  <entry>
    <fullUrl value="urn:uuid:61ebe359-bfdc-4613-8bf2-c5e300945f0b"/>
    <resource>
      <Organization>
        <id value="cds-organization-example"/>
        <meta>
          <profile value="http://interop.esante.gouv.fr/ig/fhir/cds/StructureDefinition/cds-organization"/>
        </meta>
        <text>
          <status value="generated"/><div xmlns="http://www.w3.org/1999/xhtml"><a name="Organization_cds-organization-example"> </a><p><b>Generated Narrative: Organization </b><a name="cds-organization-example"> </a><a name="hccds-organization-example"> </a></p><div style="display: inline-block; background-color: #d9e0e7; padding: 6px; margin: 4px; border: 1px solid #8da1b4; border-radius: 5px; line-height: 60%"><p style="margin-bottom: 0px">ResourceOrganization &quot;cds-organization-example&quot; </p><p style="margin-bottom: 0px">Profile: <a href="StructureDefinition-cds-organization.html">CDS Organization Profile</a></p></div><p><b>active</b>: true</p><p><b>type</b>: Médical <span style="background: LightGoldenRodYellow; margin: 4px; border: 1px solid khaki"> (<a href="https://hl7.fr/ig/fhir/core/2.0.1/CodeSystem-fr-core-cs-v2-3307.html">FR Core CodeSystem v2-3307</a>#MEDICAL)</span></p><p><b>name</b>: Cabinet médical CC CC</p><p><b>alias</b>: CC CC Rennes</p><p><b>address</b>: 12 rue du paris Rennes 35000 99100 </p></div>
        </text>
        <active value="true"/>
        <type>
          <extension url="https://interop.esante.gouv.fr/ig/fhir/annuaire/StructureDefinition/as-ext-organization-types">
            <valueCode value="organizationType"/>
          </extension>
          <coding>
            <system value="https://hl7.fr/ig/fhir/core/CodeSystem/fr-core-cs-v2-3307"/>
            <code value="MEDICAL"/>
            <display value="Médical"/>
          </coding>
        </type>
        <name value="Cabinet médical CC CC"/>
        <alias value="CC CC Rennes"/>
        <address>
          <line value="12 rue du paris"/>
          <city value="Rennes"/>
          <postalCode value="35000"/>
          <country value="99100"/>
        </address>
      </Organization>
    </resource>
    <request>
      <method value="POST"/>
      <url value="Organization"/>
    </request>
  </entry>
  <entry>
    <fullUrl value="urn:uuid:61ebe359-bfdc-4613-8bf2-c5e300945f0c"/>
    <resource>
      <Patient>
        <id value="cds-patient-example"/>
        <meta>
          <lastUpdated value="2023-09-27T13:48:19.342+01:00"/>
          <profile value="https://hl7.fr/ig/fhir/core/StructureDefinition/fr-core-patient-ins"/>
        </meta>
        <text>
          <status value="extensions"/><div xmlns="http://www.w3.org/1999/xhtml"><a name="Patient_cds-patient-example"> </a><p><b>Generated Narrative: Patient </b><a name="cds-patient-example"> </a><a name="hccds-patient-example"> </a></p><div style="display: inline-block; background-color: #d9e0e7; padding: 6px; margin: 4px; border: 1px solid #8da1b4; border-radius: 5px; line-height: 60%"><p style="margin-bottom: 0px">ResourcePatient &quot;cds-patient-example&quot; Updated&quot;2023-09-27 13:48:19+0100&quot; </p><p style="margin-bottom: 0px">Profile: <a href="https://hl7.fr/ig/fhir/core/2.0.1/StructureDefinition-fr-core-patient-ins.html">FR Core Patient INS Profile</a></p></div><blockquote><p><b>FR Core Patient Ident Reliability Extension</b></p><blockquote><p><b>url</b></p><code>identityStatus</code></blockquote><p><b>value</b>: Identité validée (Details: FR Core CodeSystem v2-0445 code VALI  = ' Identité validée ', stated as ' null ')</p></blockquote><p><b>Patient Birth Place</b>: GOULVEN </p><p><b>identifier</b>: NIR définitif/123456789012244 (use: official)</p><p><b>name</b>: Jacques Thobois (Official)</p><p><b>gender</b>: male</p><p><b>birthDate</b>: 1984-10-02</p></div>
        </text>
        <extension url="https://hl7.fr/ig/fhir/core/StructureDefinition/fr-core-identity-reliability">
          <extension url="identityStatus">
            <valueCoding>
              <system value="https://hl7.fr/ig/fhir/core/CodeSystem/fr-core-cs-v2-0445"/>
              <code value="VALI"/>
            </valueCoding>
          </extension>
        </extension>
        <extension url="http://hl7.org/fhir/StructureDefinition/patient-birthPlace">
          <valueAddress>
            <extension url="https://hl7.fr/ig/fhir/core/StructureDefinition/fr-core-address-insee-code">
              <valueCoding>
                <system value="https://mos.esante.gouv.fr/NOS/TRE_R13-Commune/FHIR/TRE-R13-Commune"/>
                <code value="29064"/>
              </valueCoding>
            </extension>
            <city value="GOULVEN"/>
          </valueAddress>
        </extension>
        <identifier>
          <use value="official"/>
          <type>
            <coding>
              <system value="https://hl7.fr/ig/fhir/core/CodeSystem/fr-core-cs-v2-0203"/>
              <code value="INS-NIR"/>
            </coding>
          </type>
          <system value="urn:oid:1.2.250.1.213.1.4.8"/>
          <value value="123456789012244"/>
        </identifier>
        <name>
          <extension url="https://hl7.fr/ig/fhir/core/StructureDefinition/fr-core-patient-birth-list-given-name">
            <valueString value="Jacques"/>
          </extension>
          <use value="official"/>
          <family value="Thobois"/>
          <given value="Jacques"/>
        </name>
        <gender value="male"/>
        <birthDate value="1984-10-02"/>
      </Patient>
    </resource>
    <request>
      <method value="POST"/>
      <url value="Patient"/>
    </request>
  </entry>
  <entry>
    <fullUrl value="urn:uuid:61ebe359-bfdc-4613-8bf2-c5e300945f0d"/>
    <resource>
      <RelatedPerson>
        <id value="cds-relatedperson-example"/>
        <meta>
          <profile value="http://interop.esante.gouv.fr/ig/fhir/cds/StructureDefinition/cds-fr-related-person"/>
        </meta>
        <text>
          <status value="generated"/><div xmlns="http://www.w3.org/1999/xhtml"><a name="RelatedPerson_cds-relatedperson-example"> </a><p><b>Generated Narrative: RelatedPerson </b><a name="cds-relatedperson-example"> </a><a name="hccds-relatedperson-example"> </a></p><div style="display: inline-block; background-color: #d9e0e7; padding: 6px; margin: 4px; border: 1px solid #8da1b4; border-radius: 5px; line-height: 60%"><p style="margin-bottom: 0px">ResourceRelatedPerson &quot;cds-relatedperson-example&quot; </p><p style="margin-bottom: 0px">Profile: <a href="StructureDefinition-cds-fr-related-person.html">CDS Fr RelatedPerson Profile</a></p></div><p><b>identifier</b>: <code>https://fake-system</code>/id-relatedPerson-12 (use: temp)</p><p><b>active</b>: true</p><p><b>patient</b>: See on this page: Patient/cds-patient-example</p><p><b>relationship</b>: Entité à contacter en cas d'urgence <span style="background: LightGoldenRodYellow; margin: 4px; border: 1px solid khaki"> (<a href="https://interop.esante.gouv.fr/ig/nos/1.2.0/CodeSystem-TRE-R260-HL7RoleClass.html">TRE_R260-HL7RoleClass</a>#ECON)</span>, Voisin(e) <span style="background: LightGoldenRodYellow; margin: 4px; border: 1px solid khaki"> (<a href="https://interop.esante.gouv.fr/ig/nos/1.2.0/CodeSystem-TRE-R216-HL7RoleCode.html">TRE_R216-HL7RoleCode</a>#NBOR)</span></p><p><b>name</b>: CHIBOUT Lamine (Official)</p><p><b>telecom</b>: ph: 0602143212</p><p><b>gender</b>: male</p><p><b>address</b>: 12 Rue de la Paix Paris 75004 FRA </p></div>
        </text>
        <identifier>
          <use value="temp"/>
          <system value="https://fake-system"/>
          <value value="id-relatedPerson-12"/>
        </identifier>
        <active value="true"/>
        <patient>
          <reference value="Patient/cds-patient-example"/>
        </patient>
        <relationship>
          <coding>
            <system value="https://mos.esante.gouv.fr/NOS/TRE_R260-HL7RoleClass/FHIR/TRE-R260-HL7RoleClass"/>
            <code value="ECON"/>
            <display value="Entité à contacter en cas d'urgence"/>
          </coding>
        </relationship>
        <relationship>
          <coding>
            <system value="https://mos.esante.gouv.fr/NOS/TRE_R216-HL7RoleCode/FHIR/TRE-R216-HL7RoleCode"/>
            <code value="NBOR"/>
            <display value="Voisin(e)"/>
          </coding>
        </relationship>
        <name>
          <use value="official"/>
          <family value="Lamine"/>
          <given value="CHIBOUT"/>
        </name>
        <telecom>
          <system value="phone"/>
          <value value="0602143212"/>
        </telecom>
        <gender value="male"/>
        <address>
          <line value="12 Rue de la Paix"/>
          <city value="Paris"/>
          <postalCode value="75004"/>
          <country value="FRA"/>
        </address>
      </RelatedPerson>
    </resource>
    <request>
      <method value="POST"/>
      <url value="RelatedPerson"/>
    </request>
  </entry>
</Bundle>